Time,Acel X,Acel Y,Acel z,Gyro X,Gyro Y,Gyro Z
1661111680.353435,-10704,656,6392,-437,436,3489
1661111680.464035,-15748,-2212,8184,1517,-250,2908
1661111680.574365,-14668,-3484,7024,1227,-2468,714
1661111680.689257,-14708,-3580,7280,831,-2284,188
1661111680.79988,-14100,-3456,8244,1811,-2759,263
1661111680.910683,-14440,-3440,8368,893,-904,187
1661111681.020895,-12936,-2780,8828,1832,-3013,-601
1661111681.132031,-13464,-3000,9148,824,-662,104
1661111681.241794,-13768,-2748,9572,639,-856,121
1661111681.352815,-13604,-2624,9992,887,-1168,62
1661111681.467185,-13640,-2668,10148,1156,-1803,-82
1661111681.581866,-13260,-2384,11260,2540,-4917,523
1661111681.692464,-14336,-1076,12096,2988,-4723,829
1661111681.798993,-11184,-832,12956,1165,-1355,561
1661111681.913951,-11376,-708,13056,1157,-1073,826
1661111682.02486,-10572,180,13784,1835,-1547,1107
1661111682.139384,-10792,204,13660,1047,-932,632
1661111682.249809,-10536,652,13836,373,151,-155
1661111682.360357,-10568,640,13648,670,-266,130
1661111682.474766,-9688,1068,13184,2032,3572,1135
1661111682.581295,-12744,808,12604,503,5890,247
1661111682.696415,-12552,1572,12276,1057,1113,806
1661111682.806753,-12868,1444,11636,435,1506,177
1661111682.917344,-12744,1944,11264,1205,2261,1367
1661111683.027735,-12388,3372,9944,1627,8011,9229
1661111683.13875,-13504,5092,8688,2475,6234,6646
1661111683.244799,-13640,6612,7272,2191,4361,4587
1661111683.355325,-13432,7392,6316,1140,1679,2583
1661111683.465879,-14804,7356,6172,597,1505,1790
1661111683.576523,-13128,8436,6044,1388,-1272,2188
1661111683.68717,-11908,9316,6036,2113,-360,3949
1661111683.801772,-10600,10904,6180,2631,-1915,6331
1661111683.91233,-10676,11544,5728,2003,-321,4782
1661111684.027101,-9816,12220,5840,979,-169,2118
1661111684.133578,-8888,12524,5752,612,65,1087
1661111684.244066,-8680,12960,5952,894,-1101,3361
1661111684.35464,-8396,13292,5924,769,-2331,4301
1661111684.469656,-7680,13744,5892,1081,-1327,3069
1661111684.579825,-6120,14204,5840,603,-3007,4869
1661111684.686336,-5472,14664,5944,1282,-744,2598
1661111684.79731,-4828,15016,5848,572,-789,1280
1661111684.90775,-3828,11688,6448,2907,179,3005
1661111685.022266,-4552,14940,5688,710,-2252,606
1661111685.133279,-3392,15376,5672,60,-3646,2901
1661111685.239781,-2900,15448,5808,656,-3048,2785
1661111685.350129,-2088,15788,5884,489,-1404,1473
1661111685.460971,-1432,15792,5656,782,-1812,1088
1661111685.571121,-1184,15976,5696,-494,-1482,362
1661111685.686092,-1288,15620,5856,932,-2010,1216
1661111685.792286,-724,16128,5072,1091,-2261,2371
1661111685.907143,1348,16216,5216,2059,-3345,4257
1661111686.01362,1300,16288,4544,1286,-3524,4737
1661111686.12408,2876,15936,4152,1477,-4063,2939
1661111686.230516,3912,15972,3768,1607,-5918,2929
1661111686.341613,4956,15584,2620,1100,-6219,3018
1661111686.451846,5724,15544,2288,229,-2688,1118
1661111686.562294,6076,15412,1968,7,-2657,820
1661111686.673132,6264,15600,1844,407,-2613,864
1661111686.787767,5836,15160,1692,120,-4470,658
1661111686.894167,6096,15480,1516,-673,1865,-1109
1661111687.009041,5844,15732,2520,-5336,13945,-7582
1661111687.119556,4896,16256,3640,-2535,4923,-4988
1661111687.234203,2056,16100,5324,-4454,6394,-7741
1661111687.340799,-464,15680,6264,-4819,3421,-8023
1661111687.455262,-2528,15128,7532,-4514,2451,-6444
1661111687.566068,-3260,14568,7960,-2748,3049,-3662
1661111687.680491,-4924,14300,8560,-2721,171,-4376
1661111687.78705,-5060,13724,8608,-2468,1329,-2311
1661111687.897629,-6216,13132,9544,-2565,1586,-2811
1661111688.012311,-6668,12228,9480,-1508,931,-753
1661111688.118809,-6396,12528,10176,-578,-155,568
1661111688.233758,-6432,12540,10292,-703,-567,-247
1661111688.343992,-5412,12272,10440,-1969,-4209,974
1661111688.450678,-4968,11632,11040,-2266,-1374,426
1661111688.561241,-5568,11440,12008,-2421,-1514,-689
1661111688.671811,-4880,10864,12376,-2099,-2659,-237
1661111688.78231,-4648,10576,12988,-1418,-1985,220
1661111688.892976,-3508,10180,13036,-2188,-3257,498
1661111689.003459,-3352,9880,14004,-1579,-3156,115
1661111689.118325,-3496,9628,14680,-1584,-5350,149
1661111689.22483,-2960,9152,15044,-1615,-4002,26
1661111689.339358,-1380,9212,15556,-879,-2535,447
1661111689.450101,288,8668,15508,-338,-5393,2151
1661111689.560815,1640,8756,15208,-128,-4959,481
1661111689.671382,2272,8900,15696,-202,-4183,76
1661111689.78189,2820,8684,15388,-278,-4975,-511
1661111689.892199,3412,8268,14988,-388,-5082,-598
1661111690.007063,5616,8436,14908,-1093,-8450,-1491
1661111690.117576,7420,8608,13652,22,-5080,-829
1661111690.224158,7484,8168,13592,833,-3114,237
1661111690.334576,7952,8408,13500,87,-2888,285
1661111690.445476,7692,7792,11276,1305,-7589,-499
1661111690.559704,10952,8688,11368,-154,-2801,655
1661111690.670543,10752,8748,11340,-99,-2807,-350
1661111690.77709,10556,8776,10960,-38,-2246,-245
1661111690.891679,10796,8600,10664,216,-2491,-251
1661111691.002615,11284,8688,10176,115,-960,125
1661111691.108638,11056,8576,10192,2,-1425,-151
1661111691.219174,11880,8704,9600,83,-983,-66
1661111691.325908,11656,8744,9796,78,-754,-141
1661111691.436487,11544,8436,9512,311,-536,-159
1661111691.546886,11704,9028,9208,1675,-3828,-1139
1661111691.657471,11916,8952,8664,-26,-681,-146
1661111691.768169,12128,8984,8576,166,-428,-230
1661111691.874678,12020,8996,8380,112,-441,-236
1661111691.989439,11664,8980,8488,71,-192,-236
1661111692.100153,12492,9224,8188,141,292,40
1661111692.210723,12268,9124,8384,-109,960,261
1661111692.321122,11928,8960,8584,-254,1991,772
1661111692.42782,12232,8764,8992,-127,2325,523
1661111692.542589,12028,8916,9720,-695,5680,1045
1661111692.653016,11068,8544,10868,-535,4492,-138
1661111692.76371,10324,8368,11620,-1798,5576,-248
1661111692.87404,8996,8276,13224,-1800,6474,-777
1661111692.984665,6984,6840,13452,2260,7080,-1642
1661111693.095273,7444,7340,13532,-1032,4802,-1255
1661111693.201708,5244,7768,15020,-449,7157,-2220
1661111693.316451,9904,18112,27500,-1517,7542,-2724
1661111693.427062,1100,7456,16748,-7320,7828,-4253
1661111693.538362,248,5156,17096,-2022,8970,787
1661111693.648225,-4644,5640,17584,-2379,12941,3354
1661111693.758751,-3504,4128,15968,-2271,6618,510
1661111693.869563,-4732,4624,17080,-1731,2789,-2295
1661111693.980155,-3092,4188,15144,-1321,5458,3802
1661111694.090748,-6228,3384,16088,-3488,189,1485
1661111694.197029,-4904,5544,18348,-2791,3212,-1388
1661111694.307669,-6300,6316,19200,6820,8444,-3891
1661111694.422378,-12464,1740,15604,-4079,4068,-1028
1661111694.532753,-9228,2996,14732,-1517,2635,-1323
1661111694.639527,-10224,1920,14584,-1929,223,-553
1661111694.754295,-9900,2580,13892,3867,10053,3075
1661111694.86071,-7640,-3040,7476,7317,1356,4746
1661111694.971585,-11848,3044,12948,-176,4916,4933
1661111695.08172,-10836,3692,12552,998,1424,2775
1661111695.188086,-11776,4040,12132,1417,793,955
1661111695.29906,-11856,5064,12728,154,871,3527
1661111695.409331,-9464,6276,11820,-2579,-1594,2218
1661111695.520252,-11204,3784,11664,-5182,5709,2253
1661111695.626243,-12784,3852,11632,-2093,5564,1823
1661111695.740995,-12652,3844,10472,-463,3755,1004
1661111695.8476,-12584,4236,10184,1679,4433,1630
1661111695.962482,-13368,4016,9352,-640,-110,726
1661111696.077283,-13384,4304,9332,773,2027,102
1661111696.187669,-13544,4136,9292,837,-1247,201
1661111696.29844,-14136,5380,9784,2000,-522,-583
1661111696.408699,-13864,4436,8704,983,-1327,-697
1661111696.519559,-13372,4912,8928,2126,-440,-1088
1661111696.630126,-14076,5344,9476,774,-1256,-268
1661111696.740602,-13700,5376,8388,-2544,8927,3123
1661111696.851116,-14028,6796,5116,3190,4444,2263
1661111696.961957,-13940,6208,5944,1121,8542,455
1661111697.072247,-13428,6432,3696,178,7209,2667
1661111697.187178,-14780,7864,2996,268,7554,3058
1661111697.297701,-15364,7596,1080,-430,3208,1349
1661111697.408208,-13948,8616,1264,816,1585,1678
1661111697.518666,-13484,8220,112,-183,1898,143
1661111697.629581,-13728,8800,164,433,3485,1627
1661111697.735919,-13676,8784,-964,379,1971,888
1661111697.846371,-13520,8804,-1176,137,1028,405
1661111697.956971,-13732,8840,-1632,105,1556,143
1661111698.063523,-11312,7904,-2696,-142,2274,-992
1661111698.174044,-13516,8764,-2224,-753,1809,1216
1661111698.284704,-6948,10480,-6276,-1519,12674,980
1661111698.395215,-11204,9728,-3420,-1798,8955,3414
1661111698.509962,-11280,10184,-4948,-978,2766,548
1661111698.620533,-10912,10112,-5356,-590,746,29
1661111698.731133,-10864,9972,-5236,-316,529,144
1661111698.841615,-10772,10224,-5440,-659,-334,-42
1661111698.952091,-10504,10316,-5268,-1018,1666,66
1661111699.066781,-10712,10620,-5080,-1058,499,-275
1661111699.173895,-10560,10616,-5192,-1358,1240,387
1661111699.288042,-12692,-17320,-8364,6831,-2491,13317
1661111699.403172,-11196,10260,-5224,-806,1717,857
1661111699.517777,-10232,11096,-5304,-236,861,260
1661111699.628189,-9872,11304,-5436,-543,1579,955
1661111699.742943,-9224,11240,-5388,-155,623,651
1661111699.853228,-10424,11460,-5088,-1297,6987,4213
1661111699.963938,-9032,11944,-5460,89,-450,1868
1661111700.074583,-6784,12368,-5804,-388,494,2787
1661111700.189496,-6848,12704,-5384,-4385,1835,6082
1661111700.304102,-5868,14192,-5012,-2148,2580,4832
1661111700.410264,-4312,13816,-4660,-4204,2721,3984
1661111700.525287,-3916,14556,-3560,-5712,4371,4794
1661111700.640091,-2300,15924,-3148,-2606,1755,2073
1661111700.754535,-3328,15600,-2352,-62,-1135,-1469
1661111700.865267,-3252,15620,-2564,-54,-654,-743
1661111700.975716,-2912,15684,-2456,-276,1426,1939
1661111701.086593,-2948,15700,-2660,-479,834,113
1661111701.192659,-2896,15488,-2328,15,-551,-638
1661111701.307525,-3072,15816,-1864,-548,1212,997
1661111701.421946,-1508,16308,-1336,-3102,3833,4132
1661111701.532502,-1804,15988,-740,-4906,-308,-2747
1661111701.643225,-1976,16156,72,-833,-110,-703
1661111701.75793,-2216,16100,300,-1247,-738,-1270
1661111701.868571,-1832,16060,1640,-1336,-1540,-1951
1661111701.975096,-2496,15860,996,-2194,306,-877
1661111702.085571,-2692,16064,1956,-2067,535,-1334
1661111702.19621,-2016,16220,2512,-4887,3542,4868
1661111702.306747,-2384,16004,2844,90,-259,-3268
1661111702.417698,-2596,16140,3168,-986,380,486
1661111702.528357,-2264,16096,3768,-741,124,9
1661111702.634317,-1672,16040,3816,-1959,996,1910
1661111702.74498,-1184,15956,4412,-1402,610,1405
1661111702.855675,-716,15968,4780,-1537,819,1858
1661111702.966147,-248,16044,5160,-1568,534,2183
1661111703.072631,-104,15888,5484,-655,-14,313
1661111703.183422,324,15940,5656,-960,629,1655
1661111703.293688,404,15812,5760,0,-92,-669
1661111703.40839,-48,15760,6000,926,-622,-3042
1661111703.519378,-1664,15880,5208,4605,-2254,-10296
1661111703.629747,-3812,15868,3904,4685,-1627,-7781
1661111703.744708,-5316,15492,3104,3438,-1321,-5218
1661111703.859398,-6592,14840,2552,4303,-1087,-4662
1661111703.973666,-7404,13664,1340,7141,-140,-4917
1661111704.084567,-8240,14252,588,4302,-1034,-4590
1661111704.195231,-8936,13692,256,630,-538,-587
1661111704.305577,-8480,13616,148,89,533,-452
1661111704.41613,-8852,13376,-212,137,361,-1104
1661111704.526641,-9188,13584,60,262,506,-664
1661111704.637206,-9312,13124,200,136,-113,-1080
1661111704.747881,-10296,13668,84,-103,54,-901
1661111704.85843,-11016,12580,1248,790,1026,1076
1661111704.969067,-9432,12396,48,48,-1477,-1866
1661111705.079639,-10612,13404,968,10934,-242,-6569
1661111705.190298,-11748,11304,-796,3099,-859,-2912
1661111705.300999,-12544,10536,-1832,2124,57,-2253
1661111705.411405,-11632,10032,-2140,1843,2440,-1003
1661111705.521918,-13556,8184,-2088,5330,5390,-3616
1661111705.632494,-13604,8244,-2920,5871,-2816,-2330
1661111705.747436,-13264,7156,-2864,4644,-4402,-1624
1661111705.86224,-14488,6672,-1644,6697,-7775,1089
1661111705.973251,-13908,7380,-972,2517,-8564,1018
1661111706.083066,-14220,7344,512,1928,-6192,1459
1661111706.189633,-14656,8012,1736,-132,-948,1016
1661111706.304547,-13656,8100,864,2444,-1101,2200
1661111706.414802,-14336,7012,3976,-3809,-1467,-502
1661111706.521243,-13736,8504,2612,55,-1544,-91
1661111706.631948,-14252,8952,2184,2297,-7,1546
1661111706.742558,-11420,7112,4600,-2391,-18951,-8923
1661111706.857466,-12388,5724,8256,-854,-10414,-8085
1661111706.971941,-10748,6380,12120,-594,-14915,-5526
1661111707.082512,-10244,3996,13824,-2317,-10197,-6944
1661111707.192961,-9256,3076,14020,-701,-5652,-1232
1661111707.303739,-9204,2444,15308,-784,-5811,-3886
1661111707.418413,-7912,1956,15616,-315,-2999,-2299
1661111707.52501,-7412,1348,16036,-586,-3784,-2001
1661111707.639417,-5884,1756,16812,296,-4804,-2222
1661111707.750034,-5540,1164,17088,749,-3307,-1672
1661111707.860762,-4544,1048,17232,-178,-2187,-88
1661111707.971283,-3872,952,17444,-45,-69,-433
1661111708.082023,-1732,532,17784,264,-2164,65
1661111708.196559,-1528,196,18040,444,-5299,-4210
1661111708.306937,1436,-220,17992,-447,-8102,-5154
1661111708.417821,2252,212,17676,-505,-7210,-6276
1661111708.5284,3696,-124,17696,-1142,-6237,-4288
1661111708.63894,4768,-4508,17384,-3594,-6389,-3237
1661111708.75381,6136,-2124,15852,-4357,-4162,-7331
1661111708.868277,6248,-1640,16620,-3573,-1928,-7287
1661111708.974771,5732,-2808,15996,-1309,116,-2037
1661111709.085639,7696,-2032,16480,-989,82,-2004
1661111709.191822,6652,-2740,16296,-901,529,-92
1661111709.306347,7368,-2896,16292,-222,707,-48
1661111709.41316,7304,-2812,16304,-138,208,-69
1661111709.523674,7488,-2944,16304,-485,137,-75
1661111709.638411,7460,-3008,15896,-220,-270,-781
1661111709.744921,7356,-3104,16036,-186,182,-74
1661111709.855734,7460,-2916,15928,-383,186,92
1661111709.966282,7396,-3032,16224,-127,172,8
1661111710.076715,7568,-3140,16044,-205,81,-75
1661111710.191245,7648,-3104,16212,-159,322,54
1661111710.301716,7528,-3204,16092,-264,217,103
1661111710.412447,7620,-3196,16188,-325,292,360
1661111710.518723,7564,-2996,15880,-113,-151,62
1661111710.629563,7808,-3512,15720,-2253,-4074,-1991
1661111710.748462,8412,-3680,15256,-1480,-2677,-1163
1661111710.858717,9176,-3648,15036,-1513,-1697,-912
1661111710.969138,9576,-4176,14436,-1936,-959,-831
1661111711.084025,9340,-4484,14160,-2285,-1792,-953
1661111711.198639,9896,-4648,14064,-44,-1131,962
1661111711.309554,10184,-5304,13800,1296,-1219,-71
1661111711.420021,10292,-4504,14064,962,1157,637
1661111711.530684,9916,-4052,14148,-126,1292,-1424
1661111711.641293,7092,-5068,14900,76,9236,4305
1661111711.751972,6492,-5464,15628,-2622,12503,5677
1661111711.862379,4332,-5872,16416,2064,4304,5505
1661111711.972987,3524,-6012,17256,-434,3734,2092
1661111712.083793,3632,-8920,15100,1048,9545,7208
1661111712.193873,-2064,-5276,16852,7460,16951,10760
1661111712.305038,-2908,-5772,16212,-747,3329,3047
1661111712.419576,-3952,-4904,15584,1811,5583,5969
1661111712.529859,-3748,-6732,13532,1333,6304,7424
1661111712.640487,-10228,-3856,17040,2317,6729,9909
1661111712.755488,-9492,-3404,15376,-687,966,645
1661111712.865669,-9240,-2716,14636,674,4775,3655
1661111712.976773,-9672,-3352,13816,612,72,-879
1661111713.083069,-9820,-2656,14536,1255,-405,2578
1661111713.19781,-12276,-2284,14108,721,2744,7149
1661111713.304399,-10964,-532,13108,358,2437,5818
1661111713.414438,-11668,212,13184,676,1997,4362
1661111713.529557,-12008,300,13208,-68,1451,2057
1661111713.639895,-12104,1468,13020,883,2306,4750
1661111713.750768,-11996,2872,12204,1254,3197,7673
1661111713.861045,-12460,3468,12364,-119,717,2272
1661111713.972085,-11836,3772,10756,-2462,1244,628
1661111714.082202,-12324,3804,11508,-209,-623,-679
1661111714.196948,-12156,2728,11632,-1107,-147,-413
1661111714.311589,-12432,2848,11920,-1470,-836,-1009
1661111714.426173,-12036,2992,12540,1019,-1171,-31
1661111714.5327,-12420,3356,11948,1086,238,2429
1661111714.643388,-12592,4424,10104,5106,2751,3182
1661111714.758094,-12716,5308,8744,-3304,9876,11228
1661111714.868681,-14988,8984,5284,-3720,24798,16503
1661111714.979215,-14632,9684,1512,-1615,9840,5694
1661111715.090012,-12432,10160,44,-134,3023,1660
1661111715.196202,-12484,10648,-496,70,2352,1371
1661111715.306817,-12028,10404,-724,72,1931,652
1661111715.417444,-12180,10516,-704,-64,552,-66
1661111715.532351,-11772,10548,-1076,213,1032,216
1661111715.642819,-11436,11004,-1336,-359,2754,2186
1661111715.753745,-11652,10760,-2192,-786,4728,1745
1661111715.868328,-10708,11528,-2320,-1008,3252,668
1661111715.978588,-10968,11668,-2768,-910,2501,1206
1661111716.089008,-8360,14140,-3100,-1556,4458,1107
1661111716.203809,-9716,11928,-3112,-420,319,542
1661111716.31462,-9884,12596,-2624,-1924,1487,1166
1661111716.425003,-9948,12064,-2588,-1876,1579,16
1661111716.535723,-9156,12896,-2452,-47,523,205
1661111716.646525,-9528,13140,-2200,-566,442,1364
1661111716.756687,-8800,13120,-2220,1735,-2212,48
1661111716.86771,-7516,13796,-2160,-1960,2849,8706
1661111716.978302,-5824,14584,-2068,-1121,2286,9079
1661111717.092636,-3980,15244,-2600,-1070,1812,3890
1661111717.207253,-2640,14816,-1196,-840,-2325,-259
1661111717.317954,-3372,15772,-1332,-2178,501,2682
1661111717.428454,-3180,16484,-972,-3251,456,4394
1661111717.538956,-2468,16036,-328,-393,-77,23
1661111717.653779,-2204,16572,744,-3126,-1247,-1978
1661111717.76029,-2900,16200,904,-453,195,1031
1661111717.86732,-2392,16292,992,-286,374,755
1661111717.97746,-2376,16260,988,286,228,238
1661111718.087878,-2276,15960,884,555,4534,-4063
1661111718.194527,-3232,16472,924,-1864,4147,-760
1661111718.309327,-4288,16168,1624,-2753,1505,169
1661111718.419557,-2836,14780,2804,-3422,-2415,12492
1661111718.53016,-636,16372,3104,-587,780,2522
1661111718.645309,-136,17132,2900,-2547,3242,3231
1661111718.75954,-2292,15344,5360,-918,6474,-6131
1661111718.870313,5564,13648,3116,-6129,-3059,8100
1661111718.980862,-620,17160,4532,-4212,-31,568
1661111719.091687,2132,15404,5732,-2536,-173,-6280
1661111719.201856,-1276,16948,6380,-9563,-1794,2234
1661111719.312527,-2264,15088,7996,-3251,-159,-1709
1661111719.427206,-2556,14608,7500,-3049,998,-1407
1661111719.53791,-2600,14268,9408,-2435,-231,-1703
1661111719.652817,-2008,12548,11208,-1998,-221,1391
1661111719.767279,-984,12324,11352,-3863,-1645,2406
1661111719.873811,244,12860,8216,-6302,-2313,6164
1661111719.984341,1356,11908,13740,-4141,-2136,7378
1661111720.094875,-1828,13916,10524,-4100,-1588,6382
1661111720.209852,2844,11364,13232,-1233,-604,2076
1661111720.320325,2392,11628,13736,-1540,-691,3443
1661111720.430609,3140,10748,13616,-1613,-187,4782
1661111720.54563,2768,13412,12844,-5492,-1707,1303
1661111720.656321,4948,9248,14484,-853,-941,-1495
1661111720.762582,4728,9244,14344,62,-174,186
1661111720.873086,4664,9148,14440,-2325,348,-1322
1661111720.984032,4180,8464,15332,-4535,1512,-3328
1661111721.098878,3764,7696,16192,-3726,2096,-3639
1661111721.2088,3568,7944,15952,3108,-212,1176
1661111721.319602,3852,8472,15672,1956,-511,1462
1661111721.430286,4048,8432,15128,1883,-497,1816
1661111721.544765,4912,8828,14840,2109,-1392,3686
1661111721.655682,5220,8764,14764,518,-1245,3017
1661111721.762188,5748,8696,15316,-2612,-2036,259
1661111721.872549,4912,8720,15548,-3487,-1178,-1709
1661111721.983099,5572,7456,15276,-4039,653,-2264
1661111722.094145,5352,6848,15800,-3859,1068,-1994
1661111722.204222,5276,6476,15860,-51,307,-189
1661111722.314752,5292,7144,15900,6979,347,2449
1661111722.425403,4936,8816,16848,9692,-144,-890
1661111722.535976,5260,9200,14748,1452,175,213
1661111722.646804,5548,9656,14052,2387,-532,445
1661111722.757082,5792,9776,13944,1184,31,-349
1661111722.863839,5380,9952,13988,1060,-88,262
1661111722.978549,5624,9764,13980,512,-324,581
1661111723.085033,5136,10480,12948,4856,-172,-5643
1661111723.199671,3100,12688,11892,6125,886,-10802
1661111723.310139,656,13756,10872,4157,5134,-6673
1661111723.424951,604,14040,8828,3890,2268,-8675
1661111723.535154,-2468,14424,9132,5457,3734,-10297
1661111723.646487,-5392,14100,7232,9089,3157,-12514
1661111723.760746,-7660,13664,5660,5158,3261,-6372
1661111723.871355,-8440,13412,4588,1321,1777,-3436
1661111723.982114,-8252,13112,4388,1216,3246,-18
1661111724.096516,-8736,14000,3124,2866,4075,4412
1661111724.202885,-7336,14584,2056,4025,5485,6434
1661111724.317619,-5708,15024,784,3887,5674,8123
1661111724.432749,-3912,15384,812,2713,3698,5885
1661111724.543066,-4356,16332,-204,-2123,199,-781
1661111724.653572,-3328,16024,-468,-857,2986,1623
1661111724.76434,-3396,15876,-292,1629,1003,-279
1661111724.878925,-3396,16152,-736,2511,-1750,-142
1661111724.986263,-2844,16060,-1888,5252,1091,3092
1661111725.095658,1092,12516,-7148,4938,648,3187
1661111725.206411,-1996,15780,-4008,4577,-210,3041
1661111725.313211,-708,15656,-5460,2177,4083,502
1661111725.423476,-788,15120,-4876,95,1304,998
1661111725.534157,-1156,14724,-3340,-1176,-2098,-951
1661111725.649067,-288,13428,-5536,1709,-2647,637
1661111725.763658,-1436,14876,-5184,6521,-10702,-1098
1661111725.874342,-2072,13760,-7148,7067,-1917,2771
1661111725.984663,-1076,12832,-8644,4587,362,-1325
1661111726.099551,-1144,12032,-9504,3303,419,-2358
1661111726.210214,-1840,12368,-9796,-700,2484,-2573
1661111726.320618,-1848,12332,-9564,-359,111,-1892
1661111726.431034,-1520,12156,-9152,-2108,2261,258
1661111726.541743,-1920,12408,-9220,-16,-3034,-1203
1661111726.652353,-2212,13500,-9472,483,-4455,-3403
1661111726.762891,-656,15040,-10072,1520,-1235,-2754
1661111726.877861,-4952,11288,-9756,1621,-964,-4417
1661111726.988055,-5348,10352,-10472,4877,-1714,-8350
1661111727.09467,-7028,7128,-11136,3788,2448,-3630
1661111727.205319,-7612,7400,-11164,5608,-1110,-2713
1661111727.316056,-9000,3688,-12092,7913,-2268,-4260
1661111727.426547,-9400,2868,-11792,-126,-1643,-777
1661111727.541235,-10308,2032,-10944,385,-3035,-1385
1661111727.65178,-10436,2024,-10712,1917,-2455,-976
1661111727.762307,-10348,1436,-10848,-128,-1022,-238
1661111727.872821,-9752,3568,-10840,-13813,7644,3596
1661111727.987612,-11704,5284,-9292,-7423,1362,3859
1661111728.098328,-11388,6520,-8544,5004,-7044,-2247
1661111728.204809,-13132,9220,-10684,396,-1043,-322
1661111728.319325,-12092,4272,-9516,-11026,2817,3028
1661111728.433899,-11476,6796,-4828,-3315,-585,1938
1661111728.548582,-13368,5848,-6352,1242,-2060,2718
1661111728.659095,-12576,6840,-6760,1085,-662,644
1661111728.76995,-12756,6556,-6476,1226,-2442,-568
1661111728.880612,-9696,11276,-6640,-3755,-3006,6083
1661111728.986999,-12656,8000,-4428,-2,-4403,2743
1661111729.097517,-13108,9584,-2676,670,-5994,-680
1661111729.208033,-11960,8920,-2712,995,-4209,-919
1661111729.32263,-13704,8804,-2400,720,-2842,-812
1661111729.437389,-12864,9592,-2060,-3032,-2832,143
1661111729.548033,-12396,10264,-1948,494,1998,915
1661111729.662685,-13024,14040,7652,7614,-20419,-9373
1661111729.773499,-14044,9488,892,-1842,-1879,1692
1661111729.887981,-12456,10812,2668,1883,-6628,-5170
1661111729.994786,-14432,8548,3944,-1963,-7071,-1345
1661111730.109114,-12048,8592,4916,-4222,-9630,-3638
1661111730.220017,-13128,7580,7308,-3556,-5071,-965
1661111730.334713,-12644,8056,9044,-1546,-7151,-5857
1661111730.445033,-13420,6608,6788,-622,-8663,-11836
1661111730.555676,-12884,4756,10328,251,276,-3262
1661111730.66639,-13004,3924,10728,363,-1563,-477
1661111730.780916,-11296,4344,11548,-329,-4544,-2552
1661111730.895634,-11924,2928,11760,-520,-1489,-1160
1661111731.006025,-13016,4900,14020,3995,-3769,-4827
1661111731.113292,-12352,3060,12952,426,-5441,-5954
1661111731.22351,-10324,2996,13520,1829,-3880,-1897
1661111731.333889,-9864,2684,13560,1077,-3288,-570
1661111731.440547,-10248,2648,14316,748,-736,129
1661111731.550948,-8940,1960,14828,1358,-2213,-309
1661111731.661798,-9524,2872,14820,821,-2078,-633
1661111731.772214,-8956,3440,15628,971,-2581,-421
1661111731.882753,-8664,3092,15348,772,-1052,-482
1661111731.993346,-8548,3172,15192,-6,1975,44
1661111732.107762,-9424,3272,14988,-39,3434,-1554
1661111732.218835,-9708,2524,14300,95,427,-2617
1661111732.329216,-9892,2240,14472,129,620,-2597
1661111732.443813,-11368,-268,12164,-5787,3403,-9571
1661111732.550776,-10464,1020,14248,-923,951,-1449
1661111732.66498,-9260,1036,13196,-1630,1876,-2033
1661111732.775824,-10296,780,14572,-127,1250,-616
1661111732.882495,-10552,612,14288,-500,172,-995
1661111732.992686,-10972,-684,15172,-59,1115,-2602
1661111733.107436,-11276,-636,13860,-421,749,363
1661111733.218085,-11420,-1224,11336,2266,-1472,338
1661111733.328431,-10192,452,14804,1585,-2042,2142
1661111733.438963,-9704,800,14396,2002,-2448,1758
1661111733.550009,-8992,1768,14812,857,-776,655
1661111733.660113,-9136,1552,15264,352,904,-554
1661111733.770865,-9800,1316,14732,-412,2446,-843
1661111733.881407,-10408,1036,14192,-188,2988,-534
1661111733.99231,-10356,976,14428,-1664,3754,-450
1661111734.102667,-11264,588,13524,-1174,1578,-946
1661111734.21319,-10744,664,13060,-1057,2422,-87
1661111734.32382,-11604,292,13404,343,236,-617
1661111734.434439,-11100,-716,12512,1913,-29,-2235
1661111734.54906,-10716,1388,13444,201,-54,-2229
1661111734.663902,-10804,1204,13528,-1441,3387,2573
1661111734.770223,-13560,2576,12756,233,9125,6763
1661111734.884815,-14976,1364,11596,-3538,11825,841
1661111734.999784,-15104,1828,6688,-3395,7586,3217
1661111735.110374,-14464,2160,5872,-904,3301,2007
1661111735.222236,-15492,2544,5636,483,338,525
1661111735.331692,-15684,2484,4484,-430,4302,1893
1661111735.441966,-15472,4320,4244,-2466,9829,12024
1661111735.552437,-15504,4828,2304,48,3938,167
1661111735.667405,-15600,4912,1760,173,2878,1829
1661111735.777724,-15312,4852,412,293,2685,-245
1661111735.88853,-15192,4980,336,233,813,-386
1661111735.99902,-15236,4868,220,77,1384,-458
1661111736.109592,-15140,4896,96,48,1294,-515
1661111736.2203,-15052,4760,-220,114,643,-83
1661111736.334919,-15148,4688,-452,-11,858,-166
1661111736.445572,-15132,4720,-440,198,1130,285
1661111736.551984,-15156,4772,-644,76,801,-59
1661111736.662532,-15216,4688,-952,213,655,-1
1661111736.773059,-15144,4724,-940,10,-96,-13
1661111736.892171,-15496,4516,-540,-1410,-1102,-2027
1661111737.002808,-10724,6156,524,2511,1875,-16126
